# MODIFIED BY M. Wild: Concatenated from b4f3/Radial Means/b4f3b*_Fav.txt
#
# Jet bulk velocity 108 m/s.
#
# Mass fractions in percent, NO and NORMS multiplied by 100.
#
# X/Db 	R(mm)	ZI	ZIRMS	T(K)	TRMS	O2	N2	H2	H20	CO	CO2	C-H	OH	NOx100	TNDR	O2RMS	N2RMS	H2RMS	H20RMS	CORMS	CO2RMS	C-HRMS	OHRMS	NORMS	TNDRRMS
#
0.26	-26.30	0.0022	0.0023	 366	  76	22.3180	76.5300	0.0045	1.0750	0.0420	0.0650	0.0030	0.01100	0.0186	1.0750	1.0450	0.4600	0.0054	0.5140	0.0560	0.3010	0.0100	0.01040	0.1225	0.0180
0.26	-25.30	0.0103	0.0071	 655	 267	18.8530	76.9300	0.0224	3.0370	0.1890	1.0390	0.0220	0.05070	0.0709	1.0840	3.1140	0.7200	0.0206	1.7520	0.1610	1.2580	0.0400	0.05800	0.0657	0.0330
0.26	-24.30	0.0398	0.0115	1705	 354	6.5270	72.4400	0.1131	10.1910	1.3380	6.3630	0.0350	0.21370	0.4741	1.1070	4.4600	3.4500	0.0785	2.5270	0.8890	2.0000	0.0800	0.07250	0.2002	0.0640
0.26	-23.30	0.0585	0.0037	2156	 103	0.9970	63.1600	0.3258	13.5000	4.0860	7.2470	0.0330	0.11040	0.7242	1.2520	0.8090	3.4500	0.1119	1.0290	1.0990	0.9160	0.0850	0.07480	0.1842	0.0800
0.26	-22.30	0.0613	0.0042	2109	 131	1.1820	60.9700	0.4437	13.9960	4.7730	6.8840	0.0770	0.03630	0.6291	1.2660	1.0710	3.1200	0.1180	1.3080	0.7750	1.0290	0.2550	0.03400	0.1857	0.0920
0.26	-20.20	0.0615	0.0050	2082	 137	1.4470	60.6200	0.4896	14.3610	4.8010	6.8680	0.0680	0.02400	0.6192	1.2510	1.0880	3.0200	0.1248	1.4250	0.6720	1.0900	0.3460	0.02550	0.1744	0.1040
0.26	-18.20	0.0622	0.0048	2066	 138	1.5390	60.3700	0.5195	14.5410	4.9000	6.8540	0.1070	0.02370	0.6131	1.2460	1.1440	3.2100	0.1259	1.4080	0.6190	1.0680	0.2760	0.01600	0.1616	0.1120
0.26	-16.20	0.0628	0.0064	2039	 135	1.6370	60.4400	0.5416	14.9330	4.9370	7.0000	0.1480	0.02340	0.5932	1.2220	1.1930	3.3200	0.1283	1.5640	0.6040	1.1390	0.4410	0.01500	0.1478	0.1220
0.26	-14.20	0.0642	0.0090	2021	 137	1.6490	60.7600	0.5647	15.2040	5.0030	7.0580	0.2610	0.02330	0.5823	1.1950	1.2060	3.5400	0.1422	1.6510	0.5860	1.1680	0.7210	0.01920	0.1368	0.1280
0.26	-12.10	0.0658	0.0118	1992	 139	1.7380	60.7200	0.5939	15.2040	4.9500	7.2030	0.4170	0.02300	0.5648	1.1860	1.2900	3.5700	0.1623	1.4950	0.5840	1.0170	0.9950	0.00790	0.1354	0.1260
0.26	-10.10	0.0664	0.0116	1984	 133	1.7150	61.0300	0.6081	15.3910	4.9730	7.2040	0.4470	0.02290	0.5467	1.1720	1.2940	3.7200	0.1553	1.6240	0.5800	1.0550	0.9760	0.01030	0.1258	0.1280
0.26	-8.10	0.0693	0.0131	1954	 128	1.6040	61.6900	0.6783	15.4510	4.9640	7.1800	0.6140	0.02420	0.5259	1.1560	1.2010	3.7500	0.1661	1.6530	0.5360	1.0840	1.1360	0.01270	0.1139	0.1290
0.26	-6.00	0.0734	0.0160	1932	 121	1.4490	62.0000	0.7176	15.6760	5.0330	7.2710	0.9680	0.02410	0.5256	1.1330	1.1770	3.7100	0.1830	1.5440	0.5040	0.9810	1.4300	0.00750	0.1151	0.1190
0.26	-5.00	0.0811	0.0223	1879	 120	1.3800	62.3500	0.8688	15.4230	4.9930	7.1290	1.5560	0.02290	0.4822	1.1160	1.1880	3.4500	0.2418	1.4880	0.4820	1.0200	2.0810	0.00560	0.1064	0.1100
0.26	-4.00	0.1267	0.0568	1736	 168	1.1290	60.6000	1.3743	14.0310	4.7870	6.2980	5.8440	0.01720	0.3850	1.1300	1.0090	3.8500	0.5236	1.4580	0.4450	1.1740	5.5920	0.00800	0.1082	0.0920
0.26	-3.00	0.3248	0.0971	1212	 194	1.0390	48.8500	3.3491	10.2850	3.7410	4.5930	25.1880	0.00160	0.1638	1.1990	0.8120	7.0700	0.8667	1.7250	0.6410	1.3180	9.7890	0.00490	0.0701	0.1060
0.26	-2.00	0.5930	0.1073	 705	 134	1.6300	27.8300	5.9664	5.9400	2.0700	3.2110	51.7120	0.00000	0.0565	1.1990	0.9090	8.0100	1.0005	1.7050	0.6500	1.3780	10.6870	0.00000	0.0271	0.0860
0.26	-0.90	0.8298	0.0756	 426	  60	2.1280	9.4800	8.1600	2.1670	0.5830	1.0620	75.3540	0.00000	0.0144	1.1280	0.7730	5.2500	0.8172	1.2260	0.4190	0.9990	7.3580	0.00000	0.0105	0.0430
0.26	0.10	0.9374	0.0177	 337	  10	1.9330	1.8600	9.3320	0.2860	0.0520	0.2460	85.6320	0.00000	0.0006	1.1160	0.5920	1.0000	0.3993	0.2500	0.0610	0.3450	1.6370	0.00000	0.0008	0.0160
0.26	1.10	0.8971	0.0442	 377	  39	1.3610	5.5000	9.1415	0.8900	0.2900	0.7610	81.1230	0.00000	0.0065	1.1710	0.7770	3.4700	0.5009	0.7600	0.2840	0.6580	4.5500	0.00000	0.0062	0.0390
0.26	2.10	0.6919	0.0923	 592	 106	0.7280	21.0600	7.0901	4.4550	1.4740	2.6010	60.8840	0.00000	0.0382	1.2640	0.6430	6.7500	0.9963	1.5710	0.5390	1.1760	8.9510	0.00000	0.0166	0.0590
0.26	4.10	0.1509	0.0701	1607	 191	0.5910	61.0000	1.6175	13.8390	4.6560	6.3470	8.0700	0.01400	0.3165	1.1080	0.7160	4.8900	0.6060	1.5920	0.6020	1.2720	7.0510	0.00880	0.1002	0.1000
0.26	8.10	0.0687	0.0127	1939	 122	1.5380	61.4300	0.6471	14.9440	5.0500	7.3270	0.5800	0.02250	0.5102	1.1550	1.1180	3.3700	0.1563	1.5530	0.5280	0.9850	1.1080	0.00640	0.1034	0.1170
0.26	12.10	0.0660	0.0115	1952	 129	1.7250	61.3700	0.6199	14.8180	4.9510	7.2350	0.3800	0.02350	0.5166	1.1560	1.1500	3.5000	0.1548	1.6170	0.5910	1.0850	0.9810	0.02420	0.1190	0.1190
0.26	16.10	0.0630	0.0062	1976	 136	1.8230	61.0800	0.5676	14.3220	4.8720	7.0430	0.1690	0.02360	0.5407	1.1760	1.1510	3.3000	0.1337	1.4320	0.6440	1.0720	0.4480	0.01950	0.1358	0.1090
0.26	20.00	0.0631	0.0051	2000	 134	1.3380	61.6500	0.5254	14.0870	4.9010	7.0660	0.1430	0.02570	0.5577	1.1790	1.0310	2.7700	0.1302	1.4450	0.7420	1.0370	0.3430	0.02620	0.1546	0.0970
0.26	22.10	0.0600	0.0036	2029	 115	1.3880	62.0800	0.4294	13.4910	4.5740	7.0520	0.0340	0.04300	0.6053	1.1810	1.0870	3.2900	0.1199	1.2260	0.8980	0.9870	0.1040	0.04750	0.1656	0.0790
0.26	24.10	0.0481	0.0092	1906	 201	3.8450	69.5700	0.1682	11.3340	2.2610	7.6910	0.0980	0.23570	0.5919	1.0820	3.3120	3.7400	0.0868	1.6580	1.0820	1.2380	0.1250	0.06350	0.1484	0.0770
0.26	25.10	0.0159	0.0090	 966	 363	16.4360	75.8600	0.0317	4.5220	0.3450	2.7290	0.0290	0.09630	0.1479	1.0090	3.8810	1.3000	0.0302	2.2680	0.2730	2.0750	0.0540	0.06940	0.1129	0.0500
0.26	26.00	0.0039	0.0032	 427	 122	21.6550	76.6000	0.0122	1.4950	0.0830	0.2070	0.0140	0.01370	0.0169	1.0510	1.3830	0.5100	0.0119	0.7290	0.1040	0.4770	0.0250	0.02050	0.0250	0.0290
0.6	-27.30	0.0013	0.0009	 323	  19	22.7560	76.3400	0.0024	0.8840	0.0070	0.0050	0.0110	0.00560	0.0006	1.0500	0.4250	0.3600	0.0030	0.1170	0.0120	0.0380	0.0130	0.00550	0.0029	0.0100
0.6	-26.30	0.0025	0.0025	 373	  88	22.2040	76.5300	0.0028	1.1560	0.0370	0.0970	0.0090	0.00660	0.0084	1.0570	1.1110	0.4200	0.0052	0.5640	0.0560	0.3590	0.0160	0.00900	0.0185	0.0160
0.6	-25.30	0.0056	0.0045	 487	 173	20.8530	76.7800	0.0069	1.8930	0.0750	0.4370	0.0180	0.00740	0.0308	1.0580	2.0310	0.5300	0.0083	1.1090	0.0670	0.7430	0.0250	0.01700	0.0421	0.0250
0.6	-24.30	0.0127	0.0089	 782	 359	17.7440	76.6300	0.0159	3.7290	0.1500	1.7110	0.0400	0.03980	0.1102	1.0600	3.8960	0.9600	0.0211	2.2660	0.1640	1.8340	0.0560	0.05570	0.1123	0.0330
0.6	-23.30	0.0291	0.0127	1446	 443	10.5150	74.7700	0.0373	8.0700	0.5570	5.1330	0.0500	0.15210	0.3459	1.0580	5.2950	2.5300	0.0527	3.0190	0.6520	2.6150	0.0890	0.09600	0.2006	0.0420
0.6	-22.30	0.0473	0.0110	1947	 261	3.8310	70.2600	0.1361	11.7280	1.7330	7.6580	0.1360	0.21940	0.6368	1.0770	3.9410	4.2700	0.1003	2.0270	1.2660	1.6770	0.1550	0.08580	0.1952	0.0610
0.6	-21.30	0.0536	0.0067	2093	 120	1.7970	66.5200	0.1862	12.9570	2.6760	7.9290	0.1380	0.17810	0.7499	1.1160	1.9960	4.7900	0.1233	1.1220	1.3410	1.1320	0.1650	0.10260	0.1624	0.0730
0.6	-20.30	0.0565	0.0069	2108	 114	1.5190	64.2800	0.2749	13.6170	3.3280	7.5920	0.1400	0.11600	0.7349	1.1410	1.4930	4.7100	0.1343	1.1820	1.2300	1.0730	0.4410	0.10180	0.1572	0.0850
0.6	-18.20	0.0581	0.0096	2088	 141	1.8140	62.1500	0.3111	13.9600	3.7150	7.4570	0.2720	0.07760	0.7077	1.1590	1.5450	4.7200	0.1573	1.2820	1.1680	1.0710	0.7570	0.09080	0.1665	0.0950
0.6	-16.20	0.0623	0.0159	2032	 163	1.9570	61.9500	0.4083	14.4100	3.9050	7.3230	0.5820	0.06420	0.6566	1.1320	1.5420	4.5300	0.1916	1.5240	0.9840	1.0780	1.3900	0.08670	0.1634	0.1090
0.6	-14.20	0.0672	0.0230	1990	 174	1.9590	61.7900	0.4549	14.8230	4.1220	7.3560	1.0320	0.04710	0.6129	1.1170	1.6160	4.2000	0.2435	1.5450	0.8550	1.1130	2.0560	0.06700	0.1664	0.1100
0.6	-12.10	0.0779	0.0296	1912	 188	1.7290	62.5200	0.5818	14.9930	4.2300	7.1690	1.9530	0.03930	0.5515	1.0830	1.5330	4.2000	0.3011	1.5090	0.8020	1.1660	2.6840	0.06140	0.1668	0.1120
0.6	-10.10	0.0909	0.0350	1845	 169	1.5090	62.5500	0.7371	15.1970	4.4490	6.9610	3.0680	0.02490	0.5009	1.0620	1.4890	3.7400	0.3266	1.4350	0.5520	1.1240	3.2410	0.03460	0.1480	0.1030
0.6	-8.10	0.1158	0.0428	1746	 159	0.9970	62.8500	1.0244	14.8940	4.4970	6.4470	5.2750	0.01870	0.4130	1.0450	1.1190	3.1300	0.3801	1.3570	0.5750	1.1850	4.1450	0.01890	0.1226	0.0810
0.6	-6.00	0.1791	0.0580	1560	 153	0.5840	59.8600	1.6619	13.4490	4.2580	5.5110	11.3310	0.01140	0.3210	1.0850	0.7200	4.1000	0.5084	1.3400	0.4010	1.0520	5.8090	0.00880	0.0904	0.0690
0.6	-5.00	0.2523	0.0843	1374	 183	0.5380	54.7900	2.3856	11.9040	3.8650	5.0190	18.4880	0.00430	0.2384	1.1420	0.6040	6.4100	0.7669	1.6690	0.5010	1.0700	8.4360	0.00680	0.0823	0.0860
0.6	-4.00	0.3563	0.0973	1144	 178	0.7960	46.6000	3.4506	10.0220	3.2990	4.5140	28.6640	0.00070	0.1625	1.2030	0.6740	7.3300	0.9276	1.6890	0.5210	1.1280	9.6350	0.00310	0.0648	0.0830
0.6	-3.00	0.4714	0.1031	 923	 169	1.0300	37.5100	4.6649	8.0550	2.6860	4.0250	39.8500	0.00000	0.1020	1.2310	0.7200	7.7800	1.0426	1.7080	0.5540	1.1070	10.0930	0.00060	0.0446	0.0680
0.6	-1.90	0.6123	0.1037	 692	 131	1.2710	26.6600	6.1240	5.7040	1.9190	3.1200	53.5820	0.00000	0.0571	1.2070	0.7800	7.6300	1.0248	1.6250	0.5720	1.2490	10.2060	0.00000	0.0260	0.0620
0.6	-0.90	0.7362	0.0881	 537	  92	1.4230	17.3100	7.3702	3.7370	1.2290	1.9900	65.7120	0.00000	0.0330	1.1770	0.7850	6.3700	0.8967	1.4220	0.4920	1.1660	8.6820	0.00000	0.0160	0.0510
0.6	0.10	0.8091	0.0673	 464	  64	1.3480	12.0300	8.1539	2.5180	0.8310	1.3380	72.7180	0.00000	0.0213	1.1750	0.7670	4.8700	0.7322	1.1100	0.4120	0.8990	6.6170	0.00000	0.0105	0.0440
0.6	1.10	0.7613	0.0811	 518	  86	0.9760	15.9300	7.7449	3.3010	1.1400	1.8870	67.8050	0.00000	0.0289	1.2110	0.7070	5.9500	0.8666	1.3570	0.4790	1.0290	7.9480	0.00000	0.0138	0.0500
0.6	2.10	0.6465	0.0962	 661	 120	0.7380	24.5900	6.5186	5.2630	1.7430	2.7810	56.6760	0.00000	0.0509	1.2520	0.6220	6.9800	1.0291	1.6020	0.5310	1.1540	9.3230	0.00000	0.0236	0.0540
0.6	4.10	0.3721	0.1095	1113	 190	0.6440	45.1900	3.5687	9.9110	3.2200	4.5320	30.2520	0.00080	0.1603	1.2310	0.6110	8.2300	1.0494	1.8340	0.5650	1.2520	10.7990	0.00320	0.0931	0.0860
0.6	8.10	0.1016	0.0406	1804	 179	1.1490	62.8700	0.8568	14.9300	4.4750	6.7100	3.9920	0.02170	0.4640	1.0660	1.4080	3.7200	0.3728	1.4510	0.5190	1.1660	3.8360	0.02000	0.1475	0.1000
0.6	12.10	0.0744	0.0272	1938	 177	1.8100	62.3300	0.5757	14.7540	4.3020	7.1470	1.5660	0.04110	0.5657	1.1020	1.5850	4.3200	0.2830	1.6420	0.7960	1.1040	2.4300	0.05640	0.1627	0.1220
0.6	16.10	0.0604	0.0149	2057	 156	2.0420	62.2700	0.3495	14.1580	3.8220	7.4040	0.5120	0.07800	0.6831	1.1430	1.7660	5.1600	0.1986	1.4410	1.1670	1.0190	1.2000	0.09820	0.1751	0.1070
0.6	20.10	0.0557	0.0067	2134	 103	1.6870	65.0700	0.2256	13.5180	3.0490	7.7720	0.2240	0.14780	0.7857	1.1360	1.5410	5.2000	0.1318	1.0440	1.3780	1.0440	0.3420	0.11220	0.1609	0.0910
0.6	22.10	0.0514	0.0114	2009	 222	3.8550	69.3000	0.1148	12.0560	1.7940	7.8730	0.0910	0.21980	0.6912	1.0800	3.7260	5.1300	0.1039	1.8920	1.5160	1.5370	0.1490	0.09110	0.1804	0.0850
0.6	23.00	0.0348	0.0136	1679	 397	8.8250	73.0600	0.0544	9.2850	0.7600	6.2630	0.2250	0.17640	0.4761	1.0550	5.2920	3.1400	0.0676	2.9510	0.8860	2.3390	0.1790	0.09910	0.2164	0.0470
0.6	24.00	0.0178	0.0105	1098	 439	15.3480	75.6300	0.0159	5.3050	0.2440	3.2900	0.0290	0.07320	0.2215	1.0300	4.5330	1.5700	0.0274	2.7480	0.3380	2.3770	0.0660	0.07990	0.1775	0.0440
0.6	25.10	0.0077	0.0055	 612	 257	19.8190	76.6900	0.0052	2.5110	0.0890	0.9340	0.0130	0.01590	0.0600	1.0370	2.4840	0.6700	0.0085	1.4560	0.0710	1.2290	0.0250	0.02860	0.0720	0.0340
0.6	26.00	0.0031	0.0027	 398	  99	21.9640	76.5500	0.0049	1.3180	0.0350	0.1420	0.0160	0.00940	0.0133	1.0480	1.1950	0.5100	0.0057	0.5980	0.0390	0.3710	0.0200	0.00790	0.0222	0.0220
0.9	-1.60	0.5694	0.0908	 706	 125	0.7450	29.6800	5.6917	6.7920	2.3160	4.0240	49.2460	0.00000	0.0745	1.1420	0.6410	6.8300	1.0205	1.5270	0.6370	1.0530	8.7420	0.00000	0.0281	0.0430
0.9	-0.50	0.6339	0.0746	 615	  91	0.8700	24.6500	6.4530	5.6680	1.8720	3.6520	55.3760	0.00000	0.0578	1.1350	0.6940	5.5200	0.8489	1.2540	0.5050	1.0220	7.1770	0.00000	0.0186	0.0440
0.9	0.50	0.6622	0.0713	 581	  83	0.8410	22.6100	6.7792	5.1920	1.6620	3.3960	58.0540	0.00000	0.0512	1.1360	0.6580	5.1800	0.8404	1.2080	0.4790	0.9820	6.8160	0.00000	0.0164	0.0370
0.9	1.50	0.6385	0.0769	 614	  97	0.6980	24.4400	6.4852	5.6200	1.8450	3.5930	55.8140	0.00000	0.0572	1.1500	0.6140	5.7800	0.9120	1.3270	0.5260	0.9510	7.3460	0.00000	0.0201	0.0370
0.9	2.50	0.5812	0.0852	 695	 118	0.4840	28.9700	5.8095	6.6240	2.2080	3.9910	50.3400	0.00000	0.0709	1.1640	0.5680	6.4000	0.9976	1.4600	0.6330	1.0470	8.1390	0.00000	0.0261	0.0370
0.9	4.50	0.4256	0.0919	 954	 155	0.1890	41.3400	3.9991	9.3730	3.4440	4.7050	35.5200	0.00020	0.1253	1.1690	0.3290	7.2400	0.9595	1.5960	0.7120	1.0130	8.9780	0.00130	0.0464	0.0520
0.9	8.50	0.1950	0.0660	1423	 167	0.1820	60.1500	1.6432	13.4480	4.8120	5.8260	13.0490	0.01500	0.2647	1.0390	0.5700	4.9500	0.6007	1.1980	0.6250	1.0180	6.5280	0.04640	0.0829	0.0630
0.9	12.50	0.0985	0.0532	1722	 212	1.7210	65.3300	0.6805	14.4340	4.5600	7.2360	4.1040	0.08110	0.4142	1.0100	2.1760	4.9400	0.4827	1.2130	1.4340	1.5080	4.8440	0.11260	0.1389	0.0620
0.9	16.50	0.0535	0.0246	1861	 164	3.8690	70.4900	0.2120	13.1640	2.5410	7.9190	0.6070	0.19740	0.5110	1.0080	2.8970	6.1500	0.2393	1.8910	2.0000	1.2520	1.9100	0.12270	0.1250	0.0750
0.9	18.50	0.0434	0.0099	1876	 161	4.9550	73.1500	0.0893	12.2050	1.5190	7.8500	0.0830	0.22260	0.5516	1.0040	3.0580	3.8700	0.1092	2.0260	1.6420	1.2580	0.2420	0.09420	0.1289	0.0460
0.9	20.40	0.0384	0.0126	1751	 238	6.7690	74.4200	0.0712	10.9060	0.7480	7.3660	0.1050	0.20520	0.4963	0.9870	3.7470	1.6300	0.0990	2.2480	1.2230	1.5500	0.6680	0.09340	0.1355	0.0270
0.9	22.40	0.0252	0.0117	1359	 401	12.0150	74.9000	0.0262	7.7480	0.3770	5.2030	0.0200	0.12040	0.3441	0.9870	5.0990	0.8600	0.0338	2.9310	0.5790	2.3590	0.0480	0.09650	0.1871	0.0320
0.9	24.40	0.0083	0.0075	 662	 305	19.5940	75.6500	0.0079	3.2000	0.1050	1.5260	0.0150	0.02560	0.0898	0.9800	3.3350	0.6600	0.0130	1.8900	0.1700	1.6720	0.0370	0.04590	0.1011	0.0350
0.9	25.40	0.0034	0.0043	 441	 174	21.8240	75.7600	0.0064	1.8850	0.0570	0.5170	0.0080	0.01200	0.0319	0.9880	1.9620	0.5000	0.0078	1.0800	0.2380	0.8650	0.0190	0.02060	0.0500	0.0260
1.3	-27.00	0.0005	0.0005	 298	   6	23.1870	75.8000	0.0019	0.9750	0.0020	0.0260	0.0110	0.00860	0.0001	1.0260	0.3340	0.3400	0.0028	0.0640	0.0020	0.0340	0.0110	0.00840	0.0007	0.0100
1.3	-26.00	0.0004	0.0005	 302	  12	23.2090	75.7500	0.0022	1.0060	0.0030	0.0290	0.0030	0.00480	0.0003	1.0260	0.3510	0.3300	0.0031	0.0940	0.0030	0.0350	0.0070	0.00620	0.0019	0.0110
1.3	-25.00	0.0009	0.0013	 320	  51	22.9680	75.8500	0.0036	1.1090	0.0100	0.0660	0.0040	0.01310	0.0032	1.0270	0.6600	0.3900	0.0041	0.3150	0.0220	0.2060	0.0090	0.00930	0.0126	0.0130
1.3	-23.90	0.0014	0.0020	 346	  78	22.7360	75.8600	0.0026	1.2620	0.0140	0.1320	0.0060	0.01110	0.0075	1.0280	0.9570	0.4100	0.0037	0.5060	0.0190	0.3360	0.0110	0.00990	0.0191	0.0150
1.3	-22.90	0.0029	0.0035	 408	 136	22.0380	75.9200	0.0058	1.6770	0.0270	0.3510	0.0120	0.00810	0.0195	1.0270	1.5670	0.4500	0.0072	0.8840	0.0580	0.6270	0.0190	0.01170	0.0332	0.0190
1.3	-21.90	0.0055	0.0049	 526	 202	20.8120	75.9200	0.0031	2.4270	0.0400	0.8300	0.0080	0.00560	0.0446	1.0290	2.2330	0.5100	0.0060	1.2700	0.0310	0.9800	0.0180	0.00940	0.0512	0.0230
1.3	-20.90	0.0095	0.0060	 686	 258	19.0870	75.9000	0.0135	3.4130	0.0660	1.5530	0.0290	0.00920	0.0803	1.0310	2.6670	0.6600	0.0137	1.5930	0.0480	1.3020	0.0400	0.01810	0.0693	0.0250
1.3	-19.90	0.0138	0.0064	 894	 270	17.0640	75.6800	0.0123	4.6920	0.0940	2.5260	0.0150	0.01800	0.1295	1.0300	2.8560	0.7200	0.0175	1.7110	0.1170	1.4060	0.0330	0.03670	0.0810	0.0250
1.3	-18.90	0.0170	0.0092	1037	 277	15.7040	75.4300	0.0170	5.5770	0.1420	3.1980	0.0390	0.03230	0.1683	1.0340	3.1440	0.9200	0.0531	1.8600	0.3160	1.4430	0.4320	0.05810	0.0861	0.0230
1.3	-16.80	0.0237	0.0150	1248	 284	13.3900	74.9300	0.0508	7.0900	0.3080	4.1530	0.1430	0.07430	0.2202	1.0370	3.8580	1.6500	0.1102	2.3310	0.6160	1.5010	0.9380	0.09260	0.0867	0.0250
1.3	-15.80	0.0315	0.0258	1386	 303	11.2160	74.1700	0.0859	8.4350	0.6810	4.8270	0.3960	0.11360	0.2626	1.0340	4.8940	3.0900	0.1843	3.0650	1.1040	1.6060	1.7800	0.11810	0.1012	0.0320
1.3	-14.80	0.0456	0.0438	1484	 297	9.0810	72.5500	0.2036	9.7850	1.2340	5.3830	1.1880	0.12660	0.2655	1.0370	5.3860	5.1000	0.3597	3.3360	1.5350	1.8250	3.4670	0.11620	0.0955	0.0450
1.3	-12.80	0.0935	0.0789	1612	 258	4.5390	67.5200	0.6298	12.5020	2.6160	6.0780	4.6150	0.12130	0.2985	1.0440	4.9680	6.9800	0.7013	2.9320	1.7180	1.6750	6.9600	0.13070	0.1039	0.0590
1.3	-10.70	0.1755	0.0929	1521	 239	1.2570	60.9200	1.4068	13.3840	3.6530	5.6880	11.6770	0.04510	0.2507	1.0750	2.5540	6.5200	0.8359	1.7710	1.0220	1.5540	8.8450	0.09440	0.0981	0.0690
1.3	-8.70	0.2522	0.0881	1352	 209	0.3060	55.7300	2.1596	12.5570	3.6820	4.8610	18.8980	0.01430	0.2030	1.1160	1.0370	6.6400	0.8100	1.5610	0.5860	1.0820	8.6470	0.05510	0.0749	0.0710
1.3	-6.70	0.3229	0.0751	1197	 150	0.1000	50.1700	2.8732	11.3420	3.3590	4.5230	25.7360	0.00150	0.1562	1.1610	0.3400	6.1600	0.7399	1.4110	0.4530	0.7820	7.3970	0.01840	0.0429	0.0580
1.3	-4.70	0.3987	0.0772	1041	 142	0.1490	43.9000	3.7137	9.9440	2.9630	4.3040	32.9970	0.00010	0.1255	1.1930	0.3030	6.2700	0.7940	1.4390	0.4610	0.7600	7.5670	0.00110	0.0563	0.0460
1.3	-2.60	0.4690	0.0748	 908	 127	0.2370	38.1500	4.4970	8.6490	2.5270	4.1920	39.7370	0.00000	0.0990	1.2040	0.3760	5.9400	0.8210	1.3770	0.4660	0.7890	7.2510	0.00000	0.0296	0.0390
1.3	-0.60	0.5221	0.0676	 812	 104	0.4060	33.6800	5.1212	7.6540	2.1930	4.0510	44.7940	0.00000	0.0805	1.2110	0.4880	5.2800	0.7514	1.1760	0.4020	0.8200	6.5390	0.00000	0.0235	0.0330
1.3	0.40	0.5242	0.0644	 807	  99	0.4190	33.4800	5.1418	7.6520	2.1810	4.0920	44.9960	0.00000	0.0799	1.2120	0.4890	4.9700	0.7415	1.1570	0.4020	0.8330	6.1870	0.00000	0.0221	0.0340
1.3	1.50	0.5274	0.0647	 806	 101	0.3150	33.3900	5.1503	7.6090	2.1690	3.9830	45.3280	0.00000	0.0795	1.2170	0.4330	5.0400	0.7427	1.1420	0.3960	0.8150	6.2160	0.00000	0.0229	0.0330
1.3	2.50	0.5008	0.0688	 852	 111	0.3230	35.3900	4.8401	8.1370	2.3240	4.0940	42.8200	0.00000	0.0860	1.2190	0.4470	5.4000	0.7673	1.2580	0.4160	0.8340	6.6480	0.00060	0.0259	0.0350
1.3	5.40	0.3995	0.0838	1036	 147	0.0980	43.8200	3.6848	9.9190	2.9420	4.3690	33.1460	0.00020	0.1259	1.2010	0.2410	6.7700	0.8743	1.4970	0.5060	0.7640	8.1770	0.00160	0.0393	0.0510
1.3	8.50	0.2889	0.0924	1258	 199	0.2120	52.8000	2.5442	11.9240	3.4900	4.8200	22.4290	0.00600	0.1773	1.1370	0.8510	7.2700	0.8532	1.6910	0.5600	1.0050	9.1070	0.03040	0.0622	0.0750
1.3	11.40	0.1724	0.0938	1509	 236	1.3590	61.4500	1.3931	13.3830	3.6740	5.6940	11.3660	0.04470	0.2548	1.0660	2.8890	6.5900	0.8500	1.8690	1.0080	1.4750	8.8840	0.08750	0.0957	0.0780
1.3	14.40	0.0717	0.0694	1588	 279	6.6150	69.4900	0.4371	11.4320	2.1600	5.7600	3.0330	0.12390	0.3004	1.0440	5.6690	6.4900	0.5879	3.4170	1.8250	1.8020	5.9010	0.12320	0.1075	0.0590
1.3	16.40	0.0376	0.0366	1469	 328	10.5100	72.9200	0.1347	9.1100	1.0850	5.1110	0.7720	0.11390	0.2770	1.0360	5.3780	4.3200	0.2810	3.4820	1.5260	1.7990	2.7420	0.11320	0.1114	0.0440
1.3	18.40	0.0220	0.0136	1252	 287	13.9620	74.9000	0.0368	6.7720	0.2900	4.0400	0.1210	0.06600	0.2340	1.0290	3.6280	1.4600	0.0877	2.2780	0.6260	1.4560	0.7760	0.08440	0.0974	0.0260
1.3	20.40	0.0153	0.0077	1006	 310	16.4490	75.4200	0.0168	5.1030	0.1150	2.9450	0.0310	0.02960	0.1578	1.0260	3.2740	0.8300	0.0250	2.0290	0.2440	1.5340	0.1240	0.05990	0.0982	0.0270
1.3	22.40	0.0085	0.0063	 691	 276	19.4680	75.8400	0.0089	3.1920	0.0550	1.4800	0.0130	0.00860	0.0790	1.0150	2.8240	0.5700	0.0129	1.6670	0.0860	1.3430	0.0540	0.02690	0.0750	0.0310
1.3	24.40	0.0027	0.0033	 406	 137	22.1240	76.0400	0.0061	1.5330	0.0200	0.2870	0.0070	0.00780	0.0181	1.0210	1.4980	0.4500	0.0077	0.8260	0.0250	0.5910	0.0180	0.03570	0.0328	0.0250
1.8	-26.00	0.0004	0.0005	 302	   4	23.2020	75.8800	0.0017	0.9020	0.0030	0.0130	0.0040	0.01840	0.0001	1.0240	0.3660	0.3600	0.0027	0.0620	0.0030	0.0220	0.0080	0.00970	0.0005	0.0090
1.8	-24.00	0.0007	0.0011	 313	  37	23.0680	75.9300	0.0034	0.9690	0.0040	0.0330	0.0020	0.00620	0.0012	1.0260	0.5670	0.3700	0.0034	0.2430	0.0080	0.1410	0.0050	0.00660	0.0072	0.0110
1.8	-21.90	0.0015	0.0020	 351	  81	22.6790	75.9800	0.0030	1.2080	0.0120	0.1240	0.0050	0.00910	0.0073	1.0260	0.9630	0.4500	0.0041	0.5180	0.0190	0.3150	0.0090	0.00770	0.0168	0.0150
1.8	-19.90	0.0038	0.0040	 458	 161	21.6290	76.0100	0.0070	1.8600	0.0360	0.4830	0.0100	0.00620	0.0239	1.0260	1.7230	0.4700	0.0118	1.0090	0.0600	0.6870	0.0490	0.01440	0.0305	0.0190
1.8	-17.90	0.0083	0.0080	 621	 249	19.8620	75.9800	0.0156	2.9230	0.1060	1.1270	0.0670	0.01160	0.0494	1.0260	2.7940	0.7000	0.0374	1.6670	0.2410	1.1500	0.3120	0.04060	0.0526	0.0220
1.8	-15.90	0.0188	0.0322	 823	 352	17.5110	75.1700	0.0828	4.4190	0.3680	1.9320	0.5410	0.03620	0.0842	1.0290	4.8150	2.7700	0.2455	2.8590	0.7690	1.6550	2.4070	0.07390	0.0759	0.0290
1.8	-13.80	0.0497	0.0690	1120	 401	12.9190	72.6600	0.2994	7.1160	1.0870	3.2300	2.4590	0.06470	0.1442	1.0410	6.7870	5.9100	0.5656	3.8860	1.3810	2.0110	5.6440	0.09980	0.1057	0.0420
1.8	-11.80	0.1145	0.1019	1345	 350	6.9000	66.8900	0.8614	10.2790	2.2970	4.4640	7.2410	0.07610	0.1927	1.0550	6.8000	8.3200	0.8893	3.7300	1.5800	1.9250	8.9030	0.11780	0.1003	0.0590
1.8	-9.80	0.2101	0.1100	1337	 249	2.5190	59.2000	1.7595	11.6280	3.1010	4.6950	15.4170	0.03640	0.1812	1.0980	4.1540	8.5100	1.0229	2.2760	1.0040	1.4100	10.1810	0.08700	0.0754	0.0700
1.8	-7.70	0.2799	0.1040	1236	 215	1.0010	53.6200	2.4610	11.4390	3.1790	4.5800	21.7830	0.01190	0.1598	1.1270	2.4510	8.0200	0.9779	1.8310	0.6580	1.0250	9.9420	0.05280	0.0571	0.0690
1.8	-5.70	0.3422	0.0775	1119	 146	0.3720	48.8200	3.0871	10.6230	2.9990	4.3900	27.6900	0.00120	0.1338	1.1640	0.7600	6.3600	0.7714	1.2920	0.4280	0.6680	7.5470	0.01460	0.0337	0.0510
1.8	-3.60	0.3808	0.0678	1048	 121	0.2940	45.3900	3.4991	10.0500	2.8380	4.4390	31.3860	0.00070	0.1234	1.1790	0.5540	5.6600	0.6944	1.1150	0.3800	0.6290	6.5910	0.01280	0.0278	0.0440
1.8	-1.60	0.4056	0.0615	1004	 105	0.2590	43.3000	3.7751	9.6950	2.7580	4.4590	33.7390	0.00000	0.1177	1.1880	0.4620	5.0700	0.6401	1.0520	0.3590	0.6700	5.9790	0.00070	0.0421	0.0330
1.8	0.40	0.4136	0.0570	 992	  98	0.2310	42.6100	3.8528	9.5580	2.7170	4.3860	34.5220	0.00000	0.1155	1.1990	0.3660	4.7300	0.6103	0.9960	0.3540	0.6240	5.5350	0.00090	0.0242	0.0320
1.8	2.40	0.4072	0.0625	 999	 107	0.3240	43.0300	3.7933	9.6300	2.7190	4.4840	33.9070	0.00010	0.1177	1.1930	0.5210	5.2100	0.6347	1.0760	0.3650	0.6970	6.1150	0.00140	0.0252	0.0380
1.8	4.40	0.3736	0.0725	1061	 139	0.3520	45.9200	3.4183	10.1650	2.8680	4.4660	30.7140	0.00080	0.1294	1.1820	0.6250	5.9300	0.7268	1.2460	0.3880	0.6720	7.0690	0.00910	0.0344	0.0430
1.8	8.40	0.2750	0.1034	1231	 213	1.1250	53.8800	2.3880	11.5270	3.1980	4.6750	21.3860	0.00940	0.1606	1.1240	2.7550	7.9900	0.9825	1.9050	0.6470	1.0530	9.8720	0.04110	0.0587	0.0730
1.8	12.40	0.1309	0.1109	1356	 326	6.2580	65.2800	0.9984	10.5490	2.5310	4.5920	8.6940	0.06410	0.1934	1.0620	6.5240	8.7800	0.9760	3.5090	1.5530	1.8710	9.8360	0.10060	0.0999	0.0680
1.8	16.40	0.0235	0.0381	 914	 354	16.5620	74.6600	0.1086	5.0510	0.5270	2.3500	0.7690	0.04010	0.1032	1.0220	5.0180	3.2800	0.3015	2.9850	1.0040	1.6910	2.9450	0.07370	0.0836	0.0320
1.8	20.40	0.0058	0.0057	 545	 223	20.7560	75.9800	0.0080	2.4210	0.0740	0.7960	0.0220	0.00900	0.0428	1.0190	2.3870	0.5500	0.0190	1.4400	0.2260	1.0170	0.0730	0.03630	0.0796	0.0250
1.8	24.40	0.0011	0.0018	 336	  79	22.8340	75.9000	0.0021	1.1620	0.0080	0.0980	0.0020	0.00310	0.0050	1.0220	0.8910	0.3900	0.0033	0.4780	0.0150	0.3100	0.0060	0.00500	0.0154	0.0150
1.8	18.40	0.0104	0.0104	 707	 255	19.1760	75.7500	0.0241	3.3990	0.1540	1.4910	0.1140	0.01630	0.0656	1.0210	2.6960	1.0100	0.0721	1.6620	0.3240	1.1720	0.6390	0.04340	0.0539	0.0260
1.8	22.40	0.0026	0.0034	 402	 135	22.1740	75.9600	0.0048	1.5560	0.0230	0.2970	0.0060	0.00470	0.0163	1.0220	1.4920	0.4100	0.0090	0.8320	0.0610	0.5590	0.0400	0.01320	0.0277	0.0180
1.8	14.50	0.0567	0.0722	1190	 422	11.8780	71.5500	0.3715	7.8430	1.3780	3.7240	2.8380	0.07770	0.1645	1.0330	7.0930	6.1800	0.6043	4.1350	1.5590	2.1990	5.9070	0.11190	0.1106	0.0470
2.4	-26.00	0.0004	0.0005	 304	  11	23.2220	75.8300	0.0010	0.9290	0.0020	0.0150	0.0030	0.00720	0.0003	1.0210	0.3670	0.3500	0.0020	0.0780	0.0030	0.0350	0.0060	0.00750	0.0023	0.0100
2.4	-25.00	0.0006	0.0011	 309	  37	23.1180	75.8900	0.0014	0.9560	0.0030	0.0300	0.0050	0.00630	0.0009	1.0200	0.5520	0.3600	0.0026	0.2410	0.0110	0.1400	0.0100	0.00690	0.0057	0.0100
2.4	-24.00	0.0006	0.0010	 315	  42	23.1220	75.8500	0.0021	0.9910	0.0050	0.0300	0.0020	0.00790	0.0013	1.0210	0.5130	0.3500	0.0032	0.2640	0.0150	0.1270	0.0090	0.00740	0.0051	0.0110
2.4	-22.00	0.0016	0.0027	 354	 107	22.6450	75.9600	0.0030	1.2350	0.0150	0.1450	0.0090	0.00480	0.0057	1.0210	1.2090	0.4200	0.0056	0.6680	0.0480	0.4350	0.0300	0.01270	0.0171	0.0130
2.4	-19.90	0.0031	0.0054	 415	 163	22.0320	75.9800	0.0066	1.6150	0.0400	0.3270	0.0290	0.00720	0.0135	1.0190	1.7810	0.5300	0.0320	1.0530	0.1310	0.6470	0.2590	0.01990	0.0280	0.0170
2.4	-17.90	0.0077	0.0175	 527	 286	20.7700	75.8200	0.0312	2.3790	0.1370	0.7160	0.1900	0.01550	0.0277	1.0220	3.4910	1.4200	0.1243	2.0970	0.4390	1.2330	1.1810	0.04710	0.0501	0.0220
2.4	-15.90	0.0190	0.0394	 701	 384	18.5440	75.0200	0.1000	3.7570	0.4220	1.3810	0.7720	0.03170	0.0545	1.0270	5.4190	3.3600	0.3022	3.2240	0.9060	1.7350	2.9660	0.07810	0.0731	0.0300
2.4	-13.80	0.0396	0.0639	 935	 483	15.1520	73.2100	0.2495	5.8380	0.9160	2.3870	1.9660	0.05000	0.0990	1.0330	7.4000	5.5900	0.5246	4.4070	1.3820	2.3070	5.0410	0.09210	0.1077	0.0410
2.4	-11.80	0.0843	0.0918	1176	 466	10.1810	69.3700	0.6084	8.5910	1.8090	3.5600	5.0990	0.07360	0.1483	1.0480	8.1770	7.7300	0.7804	4.7060	1.6640	2.4020	7.6320	0.11960	0.1156	0.0550
2.4	-9.80	0.1549	0.1105	1347	 363	4.9010	63.4600	1.2368	11.1220	2.7860	4.4490	10.6410	0.05420	0.1789	1.0760	6.5360	8.7400	0.9890	3.6680	1.4620	1.9290	9.8140	0.10760	0.1004	0.0670
2.4	-7.70	0.2064	0.1030	1363	 260	2.1960	59.2500	1.7303	12.0460	3.2460	4.8210	14.9420	0.03010	0.1809	1.0930	3.8350	7.9600	0.9432	2.3790	0.9660	1.3790	9.6540	0.08090	0.0819	0.0690
2.4	-5.70	0.2575	0.0901	1277	 206	1.2260	55.4800	2.2174	11.6770	3.3610	4.6240	19.6820	0.01270	0.1660	1.1280	2.5360	6.9900	0.8288	1.7610	0.7220	0.9890	8.6290	0.05600	0.0564	0.0620
2.4	-3.70	0.2768	0.0789	1249	 176	0.7310	54.0100	2.4074	11.6040	3.2790	4.6820	21.4410	0.00740	0.1602	1.1350	1.4430	6.2900	0.7384	1.4050	0.5420	0.8210	7.6700	0.04260	0.0496	0.0570
2.4	-1.60	0.3012	0.0666	1197	 141	0.6240	51.9500	2.6653	11.2140	3.2490	4.6400	23.7580	0.00150	0.1511	1.1520	1.1410	5.3900	0.6250	1.2160	0.4670	0.6460	6.5240	0.01140	0.0403	0.0490
2.4	0.40	0.3047	0.0681	1188	 135	0.6480	51.6600	2.6991	11.1800	3.2740	4.6230	24.1010	0.00170	0.1487	1.1520	1.0620	5.6100	0.6300	1.2090	0.4710	0.6600	6.6860	0.01600	0.0355	0.0490
2.4	2.40	0.2906	0.0752	1222	 163	0.7260	52.8400	2.5614	11.4080	3.3360	4.5850	22.7520	0.00430	0.1542	1.1460	1.2470	6.0100	0.6914	1.4270	0.5030	0.7120	7.3790	0.02790	0.0419	0.0570
2.4	4.40	0.2777	0.0811	1247	 177	0.7740	53.9400	2.4235	11.6110	3.3180	4.6220	21.5220	0.00590	0.1552	1.1370	1.2940	6.3700	0.7510	1.4670	0.5300	0.7720	7.9080	0.03560	0.0524	0.0600
